"","participant","Acc","Trial","TrialIndex","RT","MDT.ability","MPT.ability","Monolingual","gmsi","pairType","musician"
"1","10",0,15,11,3200.23,0.453430087841928,-0.353127480803585,"0",-0.827860610264842,"consMP","0"
"2","10",1,16,16,3866.63,0.453430087841928,-0.353127480803585,"0",-0.827860610264842,"nonMP","0"
"3","10",1,14,17,2834.395,0.453430087841928,-0.353127480803585,"0",-0.827860610264842,"vowelMP","0"
"4","10",0,0,7,0,0.453430087841928,-0.353127480803585,"0",-0.827860610264842,"consMP","0"
"5","10",1,1,14,2702.06,0.453430087841928,-0.353127480803585,"0",-0.827860610264842,"consMP","0"
"6","10",1,2,19,2725.39,0.453430087841928,-0.353127480803585,"0",-0.827860610264842,"nonMP","0"
"7","10",1,17,8,1845.465,0.453430087841928,-0.353127480803585,"0",-0.827860610264842,"vowelMP","0"
"8","10",1,18,1,1990.17,0.453430087841928,-0.353127480803585,"0",-0.827860610264842,"vowelMP","0"
"9","10",1,19,0,3949.695,0.453430087841928,-0.353127480803585,"0",-0.827860610264842,"nonMP","0"
"10","10",0,20,23,4568.34,0.453430087841928,-0.353127480803585,"0",-0.827860610264842,"nonMP","0"
"11","10",1,21,2,3185.52,0.453430087841928,-0.353127480803585,"0",-0.827860610264842,"nonMP","0"
"12","10",1,22,4,2452.11,0.453430087841928,-0.353127480803585,"0",-0.827860610264842,"consMP","0"
"13","10",0,23,18,3669.78,0.453430087841928,-0.353127480803585,"0",-0.827860610264842,"nonMP","0"
"14","10",1,10,5,3512.945,0.453430087841928,-0.353127480803585,"0",-0.827860610264842,"nonMP","0"
"15","10",1,11,9,4630.64,0.453430087841928,-0.353127480803585,"0",-0.827860610264842,"vowelMP","0"
"16","10",1,12,20,2900.515,0.453430087841928,-0.353127480803585,"0",-0.827860610264842,"nonMP","0"
"17","10",0,13,21,2448.205,0.453430087841928,-0.353127480803585,"0",-0.827860610264842,"consMP","0"
"18","10",0,5,12,0,0.453430087841928,-0.353127480803585,"0",-0.827860610264842,"nonMP","0"
"19","10",1,6,6,3152.89,0.453430087841928,-0.353127480803585,"0",-0.827860610264842,"nonMP","0"
"20","10",0,3,13,3282.04,0.453430087841928,-0.353127480803585,"0",-0.827860610264842,"nonMP","0"
"21","10",0,4,15,4227.825,0.453430087841928,-0.353127480803585,"0",-0.827860610264842,"nonMP","0"
"22","10",1,9,3,3063.295,0.453430087841928,-0.353127480803585,"0",-0.827860610264842,"nonMP","0"
"23","10",1,7,10,5001.305,0.453430087841928,-0.353127480803585,"0",-0.827860610264842,"nonMP","0"
"24","10",1,8,22,3904.865,0.453430087841928,-0.353127480803585,"0",-0.827860610264842,"vowelMP","0"
"25","11",1,6,11,3387.4,1.13940397246062,0.660509497884604,"0",0.319613528371349,"consMP","1"
"26","11",0,7,16,2775.175,1.13940397246062,0.660509497884604,"0",0.319613528371349,"nonMP","1"
"27","11",0,0,21,0,1.13940397246062,0.660509497884604,"0",0.319613528371349,"consMP","1"
"28","11",1,1,15,2451.64,1.13940397246062,0.660509497884604,"0",0.319613528371349,"nonMP","1"
"29","11",1,2,18,2647.65,1.13940397246062,0.660509497884604,"0",0.319613528371349,"nonMP","1"
"30","11",1,3,7,854.02,1.13940397246062,0.660509497884604,"0",0.319613528371349,"consMP","1"
"31","11",1,4,20,3608.005,1.13940397246062,0.660509497884604,"0",0.319613528371349,"nonMP","1"
"32","11",1,5,22,2467.09,1.13940397246062,0.660509497884604,"0",0.319613528371349,"vowelMP","1"
"33","11",1,18,0,1436.315,1.13940397246062,0.660509497884604,"0",0.319613528371349,"nonMP","1"
"34","11",1,19,4,2253.655,1.13940397246062,0.660509497884604,"0",0.319613528371349,"consMP","1"
"35","11",0,20,1,515.57,1.13940397246062,0.660509497884604,"0",0.319613528371349,"vowelMP","1"
"36","11",1,8,10,1186.52,1.13940397246062,0.660509497884604,"0",0.319613528371349,"nonMP","1"
"37","11",1,9,5,702.03,1.13940397246062,0.660509497884604,"0",0.319613528371349,"nonMP","1"
"38","11",1,10,19,2780.065,1.13940397246062,0.660509497884604,"0",0.319613528371349,"nonMP","1"
"39","11",1,11,12,854.505,1.13940397246062,0.660509497884604,"0",0.319613528371349,"nonMP","1"
"40","11",0,12,8,2123.39,1.13940397246062,0.660509497884604,"0",0.319613528371349,"vowelMP","1"
"41","11",0,13,2,1302.425,1.13940397246062,0.660509497884604,"0",0.319613528371349,"nonMP","1"
"42","11",0,14,17,2566.8,1.13940397246062,0.660509497884604,"0",0.319613528371349,"vowelMP","1"
"43","11",1,15,3,659.915,1.13940397246062,0.660509497884604,"0",0.319613528371349,"nonMP","1"
"44","11",1,16,23,2113.155,1.13940397246062,0.660509497884604,"0",0.319613528371349,"nonMP","1"
"45","11",1,17,6,2069.255,1.13940397246062,0.660509497884604,"0",0.319613528371349,"nonMP","1"
"46","11",1,22,13,1073.735,1.13940397246062,0.660509497884604,"0",0.319613528371349,"nonMP","1"
"47","11",1,23,14,1938.92,1.13940397246062,0.660509497884604,"0",0.319613528371349,"consMP","1"
"48","11",1,21,9,1953.92,1.13940397246062,0.660509497884604,"0",0.319613528371349,"vowelMP","1"
"49","13",0,0,3,0,-0.55799102997007,-0.129440977076968,"1",-0.436040172681752,"nonMP","0"
"50","13",0,1,13,1281.565,-0.55799102997007,-0.129440977076968,"1",-0.436040172681752,"nonMP","0"
"51","13",0,2,18,3034.575,-0.55799102997007,-0.129440977076968,"1",-0.436040172681752,"nonMP","0"
"52","13",1,3,4,5135.31,-0.55799102997007,-0.129440977076968,"1",-0.436040172681752,"consMP","0"
"53","13",1,4,20,5202.68,-0.55799102997007,-0.129440977076968,"1",-0.436040172681752,"nonMP","0"
"54","13",0,5,0,5377.49,-0.55799102997007,-0.129440977076968,"1",-0.436040172681752,"nonMP","0"
"55","13",1,6,9,3446.62,-0.55799102997007,-0.129440977076968,"1",-0.436040172681752,"vowelMP","0"
"56","13",1,7,7,5098.155,-0.55799102997007,-0.129440977076968,"1",-0.436040172681752,"consMP","0"
"57","13",1,8,11,5079.25,-0.55799102997007,-0.129440977076968,"1",-0.436040172681752,"consMP","0"
"58","13",1,9,6,4982.62,-0.55799102997007,-0.129440977076968,"1",-0.436040172681752,"nonMP","0"
"59","13",1,10,22,5071.74,-0.55799102997007,-0.129440977076968,"1",-0.436040172681752,"vowelMP","0"
"60","13",0,11,21,5058.48,-0.55799102997007,-0.129440977076968,"1",-0.436040172681752,"consMP","0"
"61","13",1,12,12,3216.12,-0.55799102997007,-0.129440977076968,"1",-0.436040172681752,"nonMP","0"
"62","13",0,13,16,5275.87,-0.55799102997007,-0.129440977076968,"1",-0.436040172681752,"nonMP","0"
"63","13",1,14,23,5201.445,-0.55799102997007,-0.129440977076968,"1",-0.436040172681752,"nonMP","0"
"64","13",1,15,2,5138.74,-0.55799102997007,-0.129440977076968,"1",-0.436040172681752,"nonMP","0"
"65","13",1,16,10,5211.125,-0.55799102997007,-0.129440977076968,"1",-0.436040172681752,"nonMP","0"
"66","13",0,17,8,5387.255,-0.55799102997007,-0.129440977076968,"1",-0.436040172681752,"vowelMP","0"
"67","13",1,18,19,5262.905,-0.55799102997007,-0.129440977076968,"1",-0.436040172681752,"nonMP","0"
"68","13",1,19,15,5152.23,-0.55799102997007,-0.129440977076968,"1",-0.436040172681752,"nonMP","0"
"69","13",0,20,14,0,-0.55799102997007,-0.129440977076968,"1",-0.436040172681752,"consMP","0"
"70","13",1,21,1,5156.555,-0.55799102997007,-0.129440977076968,"1",-0.436040172681752,"vowelMP","0"
"71","13",1,22,5,5011.44,-0.55799102997007,-0.129440977076968,"1",-0.436040172681752,"nonMP","0"
"72","13",0,23,17,5141.465,-0.55799102997007,-0.129440977076968,"1",-0.436040172681752,"vowelMP","0"
"73","14",0,0,16,1583.415,-1.24455635770579,-0.295262012050541,"1",0.767408314180594,"nonMP","1"
"74","14",1,1,22,1154.815,-1.24455635770579,-0.295262012050541,"1",0.767408314180594,"vowelMP","1"
"75","14",1,2,19,1118.425,-1.24455635770579,-0.295262012050541,"1",0.767408314180594,"nonMP","1"
"76","14",0,3,4,1017.12,-1.24455635770579,-0.295262012050541,"1",0.767408314180594,"consMP","1"
"77","14",0,4,21,1398.12,-1.24455635770579,-0.295262012050541,"1",0.767408314180594,"consMP","1"
"78","14",0,5,11,1000.41,-1.24455635770579,-0.295262012050541,"1",0.767408314180594,"consMP","1"
"79","14",1,6,1,1222.3,-1.24455635770579,-0.295262012050541,"1",0.767408314180594,"vowelMP","1"
"80","14",0,7,10,1116.955,-1.24455635770579,-0.295262012050541,"1",0.767408314180594,"nonMP","1"
"81","14",1,8,17,1169.2,-1.24455635770579,-0.295262012050541,"1",0.767408314180594,"vowelMP","1"
"82","14",1,9,7,1600.62,-1.24455635770579,-0.295262012050541,"1",0.767408314180594,"consMP","1"
"83","14",1,10,8,1451.48,-1.24455635770579,-0.295262012050541,"1",0.767408314180594,"vowelMP","1"
"84","14",1,11,3,1201.92,-1.24455635770579,-0.295262012050541,"1",0.767408314180594,"nonMP","1"
"85","14",0,12,18,866.97,-1.24455635770579,-0.295262012050541,"1",0.767408314180594,"nonMP","1"
"86","14",1,13,6,884.675,-1.24455635770579,-0.295262012050541,"1",0.767408314180594,"nonMP","1"
"87","14",0,14,14,1533.59,-1.24455635770579,-0.295262012050541,"1",0.767408314180594,"consMP","1"
"88","14",1,15,23,1151.675,-1.24455635770579,-0.295262012050541,"1",0.767408314180594,"nonMP","1"
"89","14",1,16,2,982.7,-1.24455635770579,-0.295262012050541,"1",0.767408314180594,"nonMP","1"
"90","14",0,17,20,886.72,-1.24455635770579,-0.295262012050541,"1",0.767408314180594,"nonMP","1"
"91","14",0,18,5,1418.62,-1.24455635770579,-0.295262012050541,"1",0.767408314180594,"nonMP","1"
"92","14",1,19,13,918.23,-1.24455635770579,-0.295262012050541,"1",0.767408314180594,"nonMP","1"
"93","14",1,20,12,1248.575,-1.24455635770579,-0.295262012050541,"1",0.767408314180594,"nonMP","1"
"94","14",1,21,15,1024.485,-1.24455635770579,-0.295262012050541,"1",0.767408314180594,"nonMP","1"
"95","14",0,22,0,1403.01,-1.24455635770579,-0.295262012050541,"1",0.767408314180594,"nonMP","1"
"96","14",0,23,9,1450.33,-1.24455635770579,-0.295262012050541,"1",0.767408314180594,"vowelMP","1"
"97","15",0,0,1,1653.78,-0.144447565017748,-2.09280713414309,"1",-0.827860610264842,"vowelMP","0"
"98","15",1,1,17,1628.625,-0.144447565017748,-2.09280713414309,"1",-0.827860610264842,"vowelMP","0"
"99","15",0,2,4,1088.205,-0.144447565017748,-2.09280713414309,"1",-0.827860610264842,"consMP","0"
"100","15",1,3,22,1003.105,-0.144447565017748,-2.09280713414309,"1",-0.827860610264842,"vowelMP","0"
"101","15",1,4,2,887.735,-0.144447565017748,-2.09280713414309,"1",-0.827860610264842,"nonMP","0"
"102","15",0,5,11,1074.775,-0.144447565017748,-2.09280713414309,"1",-0.827860610264842,"consMP","0"
"103","15",1,6,16,1301.345,-0.144447565017748,-2.09280713414309,"1",-0.827860610264842,"nonMP","0"
"104","15",0,7,3,1200.995,-0.144447565017748,-2.09280713414309,"1",-0.827860610264842,"nonMP","0"
"105","15",1,8,13,542.735,-0.144447565017748,-2.09280713414309,"1",-0.827860610264842,"nonMP","0"
"106","15",0,9,23,1050.035,-0.144447565017748,-2.09280713414309,"1",-0.827860610264842,"nonMP","0"
"107","15",0,10,6,1299.825,-0.144447565017748,-2.09280713414309,"1",-0.827860610264842,"nonMP","0"
"108","15",1,11,8,635,-0.144447565017748,-2.09280713414309,"1",-0.827860610264842,"vowelMP","0"
"109","15",1,12,21,788.2,-0.144447565017748,-2.09280713414309,"1",-0.827860610264842,"consMP","0"
"110","15",0,13,15,956.555,-0.144447565017748,-2.09280713414309,"1",-0.827860610264842,"nonMP","0"
"111","15",1,14,12,339.67,-0.144447565017748,-2.09280713414309,"1",-0.827860610264842,"nonMP","0"
"112","15",1,15,0,1061.47,-0.144447565017748,-2.09280713414309,"1",-0.827860610264842,"nonMP","0"
"113","15",1,16,10,747.325,-0.144447565017748,-2.09280713414309,"1",-0.827860610264842,"nonMP","0"
"114","15",1,17,7,420.14,-0.144447565017748,-2.09280713414309,"1",-0.827860610264842,"consMP","0"
"115","15",0,18,19,569.055,-0.144447565017748,-2.09280713414309,"1",-0.827860610264842,"nonMP","0"
"116","15",0,19,14,874.14,-0.144447565017748,-2.09280713414309,"1",-0.827860610264842,"consMP","0"
"117","15",0,20,18,468.655,-0.144447565017748,-2.09280713414309,"1",-0.827860610264842,"nonMP","0"
"118","15",0,21,9,541.09,-0.144447565017748,-2.09280713414309,"1",-0.827860610264842,"vowelMP","0"
"119","15",0,22,5,715.85,-0.144447565017748,-2.09280713414309,"1",-0.827860610264842,"nonMP","0"
"120","15",0,23,20,701.695,-0.144447565017748,-2.09280713414309,"1",-0.827860610264842,"nonMP","0"
"121","16",1,0,21,1467.695,-0.0893097540219325,-0.242838072269245,"1",0.543510921275971,"consMP","1"
"122","16",0,1,12,5252.79,-0.0893097540219325,-0.242838072269245,"1",0.543510921275971,"nonMP","1"
"123","16",1,2,3,2517.28,-0.0893097540219325,-0.242838072269245,"1",0.543510921275971,"nonMP","1"
"124","16",0,3,11,0,-0.0893097540219325,-0.242838072269245,"1",0.543510921275971,"consMP","1"
"125","16",1,4,0,2149.185,-0.0893097540219325,-0.242838072269245,"1",0.543510921275971,"nonMP","1"
"126","16",1,5,5,5433.76,-0.0893097540219325,-0.242838072269245,"1",0.543510921275971,"nonMP","1"
"127","16",0,6,22,4466.87,-0.0893097540219325,-0.242838072269245,"1",0.543510921275971,"vowelMP","1"
"128","16",0,7,1,0,-0.0893097540219325,-0.242838072269245,"1",0.543510921275971,"vowelMP","1"
"129","16",1,8,6,4525.28,-0.0893097540219325,-0.242838072269245,"1",0.543510921275971,"nonMP","1"
"130","16",1,9,23,3032.695,-0.0893097540219325,-0.242838072269245,"1",0.543510921275971,"nonMP","1"
"131","16",1,10,9,2584.675,-0.0893097540219325,-0.242838072269245,"1",0.543510921275971,"vowelMP","1"
"132","16",0,11,13,3115.65,-0.0893097540219325,-0.242838072269245,"1",0.543510921275971,"nonMP","1"
"133","16",1,12,4,2068.255,-0.0893097540219325,-0.242838072269245,"1",0.543510921275971,"consMP","1"
"134","16",0,13,7,0,-0.0893097540219325,-0.242838072269245,"1",0.543510921275971,"consMP","1"
"135","16",1,14,2,4802.055,-0.0893097540219325,-0.242838072269245,"1",0.543510921275971,"nonMP","1"
"136","16",0,15,18,0,-0.0893097540219325,-0.242838072269245,"1",0.543510921275971,"nonMP","1"
"137","16",0,16,8,0,-0.0893097540219325,-0.242838072269245,"1",0.543510921275971,"vowelMP","1"
"138","16",0,17,16,0,-0.0893097540219325,-0.242838072269245,"1",0.543510921275971,"nonMP","1"
"139","16",1,18,19,3700.02,-0.0893097540219325,-0.242838072269245,"1",0.543510921275971,"nonMP","1"
"140","16",0,19,14,0,-0.0893097540219325,-0.242838072269245,"1",0.543510921275971,"consMP","1"
"141","16",1,20,15,2950.64,-0.0893097540219325,-0.242838072269245,"1",0.543510921275971,"nonMP","1"
"142","16",1,21,20,2798.965,-0.0893097540219325,-0.242838072269245,"1",0.543510921275971,"nonMP","1"
"143","16",0,22,10,984.58,-0.0893097540219325,-0.242838072269245,"1",0.543510921275971,"nonMP","1"
"144","16",0,23,17,1700.295,-0.0893097540219325,-0.242838072269245,"1",0.543510921275971,"vowelMP","1"
"145","17",1,0,18,5441.06,2.00350926063358,0.912229102735026,"1",0.0677289613536484,"nonMP","1"
"146","17",1,1,2,2771.51,2.00350926063358,0.912229102735026,"1",0.0677289613536484,"nonMP","1"
"147","17",1,2,0,1356.41,2.00350926063358,0.912229102735026,"1",0.0677289613536484,"nonMP","1"
"148","17",1,3,7,4337.93,2.00350926063358,0.912229102735026,"1",0.0677289613536484,"consMP","1"
"149","17",0,4,17,2112.625,2.00350926063358,0.912229102735026,"1",0.0677289613536484,"vowelMP","1"
"150","17",1,5,11,3817.295,2.00350926063358,0.912229102735026,"1",0.0677289613536484,"consMP","1"
"151","17",0,6,8,4667.65,2.00350926063358,0.912229102735026,"1",0.0677289613536484,"vowelMP","1"
"152","17",1,7,12,4301.52,2.00350926063358,0.912229102735026,"1",0.0677289613536484,"nonMP","1"
"153","17",0,8,9,4073.185,2.00350926063358,0.912229102735026,"1",0.0677289613536484,"vowelMP","1"
"154","17",0,9,23,4332.875,2.00350926063358,0.912229102735026,"1",0.0677289613536484,"nonMP","1"
"155","17",1,10,21,2419.97,2.00350926063358,0.912229102735026,"1",0.0677289613536484,"consMP","1"
"156","17",0,11,10,4017.675,2.00350926063358,0.912229102735026,"1",0.0677289613536484,"nonMP","1"
"157","17",1,12,13,2049.075,2.00350926063358,0.912229102735026,"1",0.0677289613536484,"nonMP","1"
"158","17",1,13,6,2286.37,2.00350926063358,0.912229102735026,"1",0.0677289613536484,"nonMP","1"
"159","17",0,14,5,3602.99,2.00350926063358,0.912229102735026,"1",0.0677289613536484,"nonMP","1"
"160","17",1,15,14,2450.3,2.00350926063358,0.912229102735026,"1",0.0677289613536484,"consMP","1"
"161","17",1,16,22,2840.74,2.00350926063358,0.912229102735026,"1",0.0677289613536484,"vowelMP","1"
"162","17",1,17,4,5388.815,2.00350926063358,0.912229102735026,"1",0.0677289613536484,"consMP","1"
"163","17",1,18,20,2131.625,2.00350926063358,0.912229102735026,"1",0.0677289613536484,"nonMP","1"
"164","17",1,19,1,920.395,2.00350926063358,0.912229102735026,"1",0.0677289613536484,"vowelMP","1"
"165","17",1,20,15,2883.785,2.00350926063358,0.912229102735026,"1",0.0677289613536484,"nonMP","1"
"166","17",1,21,16,3702.79,2.00350926063358,0.912229102735026,"1",0.0677289613536484,"nonMP","1"
"167","17",1,22,19,4705.355,2.00350926063358,0.912229102735026,"1",0.0677289613536484,"nonMP","1"
"168","17",1,23,3,4984.405,2.00350926063358,0.912229102735026,"1",0.0677289613536484,"nonMP","1"
"169","18",0,0,1,4894.38,-1.58293037477772,-1.16312949712772,"1",-1.10773235139562,"vowelMP","0"
"170","18",0,1,18,1658.76,-1.58293037477772,-1.16312949712772,"1",-1.10773235139562,"nonMP","0"
"171","18",0,2,20,0,-1.58293037477772,-1.16312949712772,"1",-1.10773235139562,"nonMP","0"
"172","18",1,3,15,2256.945,-1.58293037477772,-1.16312949712772,"1",-1.10773235139562,"nonMP","0"
"173","18",0,4,4,3663.205,-1.58293037477772,-1.16312949712772,"1",-1.10773235139562,"consMP","0"
"174","18",1,5,7,5108.06,-1.58293037477772,-1.16312949712772,"1",-1.10773235139562,"consMP","0"
"175","18",1,6,14,2891.38,-1.58293037477772,-1.16312949712772,"1",-1.10773235139562,"consMP","0"
"176","18",1,7,16,2213.675,-1.58293037477772,-1.16312949712772,"1",-1.10773235139562,"nonMP","0"
"177","18",1,8,12,3384.725,-1.58293037477772,-1.16312949712772,"1",-1.10773235139562,"nonMP","0"
"178","18",0,9,5,5317.32,-1.58293037477772,-1.16312949712772,"1",-1.10773235139562,"nonMP","0"
"179","18",1,10,0,2439.9,-1.58293037477772,-1.16312949712772,"1",-1.10773235139562,"nonMP","0"
"180","18",0,11,6,0,-1.58293037477772,-1.16312949712772,"1",-1.10773235139562,"nonMP","0"
"181","18",1,12,23,2277.54,-1.58293037477772,-1.16312949712772,"1",-1.10773235139562,"nonMP","0"
"182","18",0,13,2,2494.145,-1.58293037477772,-1.16312949712772,"1",-1.10773235139562,"nonMP","0"
"183","18",1,14,9,3240.39,-1.58293037477772,-1.16312949712772,"1",-1.10773235139562,"vowelMP","0"
"184","18",0,15,11,2926.99,-1.58293037477772,-1.16312949712772,"1",-1.10773235139562,"consMP","0"
"185","18",0,16,17,2200.585,-1.58293037477772,-1.16312949712772,"1",-1.10773235139562,"vowelMP","0"
"186","18",1,17,21,2529.405,-1.58293037477772,-1.16312949712772,"1",-1.10773235139562,"consMP","0"
"187","18",1,18,22,2506.53,-1.58293037477772,-1.16312949712772,"1",-1.10773235139562,"vowelMP","0"
"188","18",1,19,19,4409.1,-1.58293037477772,-1.16312949712772,"1",-1.10773235139562,"nonMP","0"
"189","18",1,20,8,3336.38,-1.58293037477772,-1.16312949712772,"1",-1.10773235139562,"vowelMP","0"
"190","18",0,21,13,3990.3,-1.58293037477772,-1.16312949712772,"1",-1.10773235139562,"nonMP","0"
"191","18",0,22,3,4144.14,-1.58293037477772,-1.16312949712772,"1",-1.10773235139562,"nonMP","0"
"192","18",1,23,10,2737.315,-1.58293037477772,-1.16312949712772,"1",-1.10773235139562,"nonMP","0"
"193","19",0,0,20,0,-2.3175657146347,-2.30459876911369,"0",-0.21214277977713,"nonMP","1"
"194","19",0,1,9,0,-2.3175657146347,-2.30459876911369,"0",-0.21214277977713,"vowelMP","1"
"195","19",0,2,19,0,-2.3175657146347,-2.30459876911369,"0",-0.21214277977713,"nonMP","1"
"196","19",0,3,22,0,-2.3175657146347,-2.30459876911369,"0",-0.21214277977713,"vowelMP","1"
"197","19",0,4,7,0,-2.3175657146347,-2.30459876911369,"0",-0.21214277977713,"consMP","1"
"198","19",0,5,13,0,-2.3175657146347,-2.30459876911369,"0",-0.21214277977713,"nonMP","1"
"199","19",0,6,12,0,-2.3175657146347,-2.30459876911369,"0",-0.21214277977713,"nonMP","1"
"200","19",0,7,17,0,-2.3175657146347,-2.30459876911369,"0",-0.21214277977713,"vowelMP","1"
"201","19",0,8,16,0,-2.3175657146347,-2.30459876911369,"0",-0.21214277977713,"nonMP","1"
"202","19",0,9,14,812.345,-2.3175657146347,-2.30459876911369,"0",-0.21214277977713,"consMP","1"
"203","19",0,10,18,362.9,-2.3175657146347,-2.30459876911369,"0",-0.21214277977713,"nonMP","1"
"204","19",1,11,15,418.55,-2.3175657146347,-2.30459876911369,"0",-0.21214277977713,"nonMP","1"
"205","19",0,12,1,0,-2.3175657146347,-2.30459876911369,"0",-0.21214277977713,"vowelMP","1"
"206","19",0,13,2,0,-2.3175657146347,-2.30459876911369,"0",-0.21214277977713,"nonMP","1"
"207","19",0,14,5,0,-2.3175657146347,-2.30459876911369,"0",-0.21214277977713,"nonMP","1"
"208","19",1,15,3,3551.54,-2.3175657146347,-2.30459876911369,"0",-0.21214277977713,"nonMP","1"
"209","19",0,16,11,289.41,-2.3175657146347,-2.30459876911369,"0",-0.21214277977713,"consMP","1"
"210","19",1,17,8,217.83,-2.3175657146347,-2.30459876911369,"0",-0.21214277977713,"vowelMP","1"
"211","19",0,18,6,0,-2.3175657146347,-2.30459876911369,"0",-0.21214277977713,"nonMP","1"
"212","19",1,19,4,189.945,-2.3175657146347,-2.30459876911369,"0",-0.21214277977713,"consMP","1"
"213","19",1,20,23,81.825,-2.3175657146347,-2.30459876911369,"0",-0.21214277977713,"nonMP","1"
"214","19",1,21,10,76.015,-2.3175657146347,-2.30459876911369,"0",-0.21214277977713,"nonMP","1"
"215","19",1,22,21,401.835,-2.3175657146347,-2.30459876911369,"0",-0.21214277977713,"consMP","1"
"216","19",0,23,0,3701.875,-2.3175657146347,-2.30459876911369,"0",-0.21214277977713,"nonMP","1"
"217","20",1,5,12,916.38,-0.310318509655245,-0.680282920479517,"0",-0.156168431550974,"nonMP","1"
"218","20",0,4,7,2186.305,-0.310318509655245,-0.680282920479517,"0",-0.156168431550974,"consMP","1"
"219","20",1,0,1,1397.645,-0.310318509655245,-0.680282920479517,"0",-0.156168431550974,"vowelMP","1"
"220","20",1,1,22,2146.465,-0.310318509655245,-0.680282920479517,"0",-0.156168431550974,"vowelMP","1"
"221","20",1,2,21,2856.56,-0.310318509655245,-0.680282920479517,"0",-0.156168431550974,"consMP","1"
"222","20",1,3,18,4254.515,-0.310318509655245,-0.680282920479517,"0",-0.156168431550974,"nonMP","1"
"223","20",1,16,14,496.695,-0.310318509655245,-0.680282920479517,"0",-0.156168431550974,"consMP","1"
"224","20",1,17,16,484.945,-0.310318509655245,-0.680282920479517,"0",-0.156168431550974,"nonMP","1"
"225","20",1,18,20,589.185,-0.310318509655245,-0.680282920479517,"0",-0.156168431550974,"nonMP","1"
"226","20",0,6,15,1067.945,-0.310318509655245,-0.680282920479517,"0",-0.156168431550974,"nonMP","1"
"227","20",1,7,17,761.115,-0.310318509655245,-0.680282920479517,"0",-0.156168431550974,"vowelMP","1"
"228","20",0,8,11,1292.82,-0.310318509655245,-0.680282920479517,"0",-0.156168431550974,"consMP","1"
"229","20",1,9,10,1152.87,-0.310318509655245,-0.680282920479517,"0",-0.156168431550974,"nonMP","1"
"230","20",0,10,0,1890.32,-0.310318509655245,-0.680282920479517,"0",-0.156168431550974,"nonMP","1"
"231","20",1,11,3,1081.195,-0.310318509655245,-0.680282920479517,"0",-0.156168431550974,"nonMP","1"
"232","20",1,12,9,1256.96,-0.310318509655245,-0.680282920479517,"0",-0.156168431550974,"vowelMP","1"
"233","20",0,13,13,1289.69,-0.310318509655245,-0.680282920479517,"0",-0.156168431550974,"nonMP","1"
"234","20",0,14,19,653.275,-0.310318509655245,-0.680282920479517,"0",-0.156168431550974,"nonMP","1"
"235","20",1,15,8,904.51,-0.310318509655245,-0.680282920479517,"0",-0.156168431550974,"vowelMP","1"
"236","20",1,20,4,537.61,-0.310318509655245,-0.680282920479517,"0",-0.156168431550974,"consMP","1"
"237","20",1,21,2,1335.58,-0.310318509655245,-0.680282920479517,"0",-0.156168431550974,"nonMP","1"
"238","20",1,22,5,1678.22,-0.310318509655245,-0.680282920479517,"0",-0.156168431550974,"nonMP","1"
"239","20",1,19,23,564.91,-0.310318509655245,-0.680282920479517,"0",-0.156168431550974,"nonMP","1"
"240","20",1,23,6,2029.235,-0.310318509655245,-0.680282920479517,"0",-0.156168431550974,"nonMP","1"
"241","21",1,6,4,2956.29,-2.28819219821053,-0.387620872261004,"0",-0.436040172681752,"consMP","0"
"242","21",0,7,8,2577.54,-2.28819219821053,-0.387620872261004,"0",-0.436040172681752,"vowelMP","0"
"243","21",0,8,1,2318.13,-2.28819219821053,-0.387620872261004,"0",-0.436040172681752,"vowelMP","0"
"244","21",0,14,20,4821.57,-2.28819219821053,-0.387620872261004,"0",-0.436040172681752,"nonMP","0"
"245","21",0,15,18,0,-2.28819219821053,-0.387620872261004,"0",-0.436040172681752,"nonMP","0"
"246","21",0,16,22,3061.845,-2.28819219821053,-0.387620872261004,"0",-0.436040172681752,"vowelMP","0"
"247","21",1,17,0,801.11,-2.28819219821053,-0.387620872261004,"0",-0.436040172681752,"nonMP","0"
"248","21",0,18,11,4056.76,-2.28819219821053,-0.387620872261004,"0",-0.436040172681752,"consMP","0"
"249","21",1,19,6,644.595,-2.28819219821053,-0.387620872261004,"0",-0.436040172681752,"nonMP","0"
"250","21",1,20,9,4975.57,-2.28819219821053,-0.387620872261004,"0",-0.436040172681752,"vowelMP","0"
"251","21",0,21,12,0,-2.28819219821053,-0.387620872261004,"0",-0.436040172681752,"nonMP","0"
"252","21",0,9,19,2293.75,-2.28819219821053,-0.387620872261004,"0",-0.436040172681752,"nonMP","0"
"253","21",0,10,10,4279.405,-2.28819219821053,-0.387620872261004,"0",-0.436040172681752,"nonMP","0"
"254","21",0,11,13,0,-2.28819219821053,-0.387620872261004,"0",-0.436040172681752,"nonMP","0"
"255","21",0,12,17,0,-2.28819219821053,-0.387620872261004,"0",-0.436040172681752,"vowelMP","0"
"256","21",1,13,15,4926.79,-2.28819219821053,-0.387620872261004,"0",-0.436040172681752,"nonMP","0"
"257","21",0,0,7,4271.41,-2.28819219821053,-0.387620872261004,"0",-0.436040172681752,"consMP","0"
"258","21",1,1,16,3097.77,-2.28819219821053,-0.387620872261004,"0",-0.436040172681752,"nonMP","0"
"259","21",0,2,21,2182.985,-2.28819219821053,-0.387620872261004,"0",-0.436040172681752,"consMP","0"
"260","21",0,3,14,2512.69,-2.28819219821053,-0.387620872261004,"0",-0.436040172681752,"consMP","0"
"261","21",0,4,23,2518.785,-2.28819219821053,-0.387620872261004,"0",-0.436040172681752,"nonMP","0"
"262","21",0,5,2,2554.685,-2.28819219821053,-0.387620872261004,"0",-0.436040172681752,"nonMP","0"
"263","21",1,22,3,4853.215,-2.28819219821053,-0.387620872261004,"0",-0.436040172681752,"nonMP","0"
"264","21",1,23,5,687.64,-2.28819219821053,-0.387620872261004,"0",-0.436040172681752,"nonMP","0"
"265","22",0,9,9,0,-0.997928030774851,-0.507562505670838,"0",-0.408052998568674,"vowelMP","1"
"266","22",0,10,11,1221.305,-0.997928030774851,-0.507562505670838,"0",-0.408052998568674,"consMP","1"
"267","22",0,22,12,4013.575,-0.997928030774851,-0.507562505670838,"0",-0.408052998568674,"nonMP","1"
"268","22",0,23,10,4375.785,-0.997928030774851,-0.507562505670838,"0",-0.408052998568674,"nonMP","1"
"269","22",0,0,18,0,-0.997928030774851,-0.507562505670838,"0",-0.408052998568674,"nonMP","1"
"270","22",0,1,20,0,-0.997928030774851,-0.507562505670838,"0",-0.408052998568674,"nonMP","1"
"271","22",0,2,6,2405.63,-0.997928030774851,-0.507562505670838,"0",-0.408052998568674,"nonMP","1"
"272","22",1,3,1,1936.695,-0.997928030774851,-0.507562505670838,"0",-0.408052998568674,"vowelMP","1"
"273","22",0,4,4,4685.715,-0.997928030774851,-0.507562505670838,"0",-0.408052998568674,"consMP","1"
"274","22",0,5,5,1485.815,-0.997928030774851,-0.507562505670838,"0",-0.408052998568674,"nonMP","1"
"275","22",0,6,2,3326.96,-0.997928030774851,-0.507562505670838,"0",-0.408052998568674,"nonMP","1"
"276","22",0,7,23,4977.81,-0.997928030774851,-0.507562505670838,"0",-0.408052998568674,"nonMP","1"
"277","22",1,8,22,2956.185,-0.997928030774851,-0.507562505670838,"0",-0.408052998568674,"vowelMP","1"
"278","22",1,13,14,4892.83,-0.997928030774851,-0.507562505670838,"0",-0.408052998568674,"consMP","1"
"279","22",0,14,19,3305.79,-0.997928030774851,-0.507562505670838,"0",-0.408052998568674,"nonMP","1"
"280","22",0,11,16,0,-0.997928030774851,-0.507562505670838,"0",-0.408052998568674,"nonMP","1"
"281","22",0,12,7,0,-0.997928030774851,-0.507562505670838,"0",-0.408052998568674,"consMP","1"
"282","22",0,17,13,2293.165,-0.997928030774851,-0.507562505670838,"0",-0.408052998568674,"nonMP","1"
"283","22",1,18,8,3075.43,-0.997928030774851,-0.507562505670838,"0",-0.408052998568674,"vowelMP","1"
"284","22",0,15,15,3774.94,-0.997928030774851,-0.507562505670838,"0",-0.408052998568674,"nonMP","1"
"285","22",1,16,0,2284.585,-0.997928030774851,-0.507562505670838,"0",-0.408052998568674,"nonMP","1"
"286","22",1,21,17,2641.29,-0.997928030774851,-0.507562505670838,"0",-0.408052998568674,"vowelMP","1"
"287","22",0,19,21,4472.955,-0.997928030774851,-0.507562505670838,"0",-0.408052998568674,"consMP","1"
"288","22",0,20,3,0,-0.997928030774851,-0.507562505670838,"0",-0.408052998568674,"nonMP","1"
"289","23",0,1,8,2925.09,-1.1734220669434,-1.84618113992229,"1",-0.827860610264842,"vowelMP","0"
"290","23",1,0,11,3105.345,-1.1734220669434,-1.84618113992229,"1",-0.827860610264842,"consMP","0"
"291","23",1,13,20,1069.39,-1.1734220669434,-1.84618113992229,"1",-0.827860610264842,"nonMP","0"
"292","23",1,14,0,782.14,-1.1734220669434,-1.84618113992229,"1",-0.827860610264842,"nonMP","0"
"293","23",1,2,14,2886.09,-1.1734220669434,-1.84618113992229,"1",-0.827860610264842,"consMP","0"
"294","23",1,3,3,2251.055,-1.1734220669434,-1.84618113992229,"1",-0.827860610264842,"nonMP","0"
"295","23",1,4,13,2199.8,-1.1734220669434,-1.84618113992229,"1",-0.827860610264842,"nonMP","0"
"296","23",1,5,17,1785.535,-1.1734220669434,-1.84618113992229,"1",-0.827860610264842,"vowelMP","0"
"297","23",1,6,4,1257.165,-1.1734220669434,-1.84618113992229,"1",-0.827860610264842,"consMP","0"
"298","23",1,7,19,1883.245,-1.1734220669434,-1.84618113992229,"1",-0.827860610264842,"nonMP","0"
"299","23",1,8,2,2297.605,-1.1734220669434,-1.84618113992229,"1",-0.827860610264842,"nonMP","0"
"300","23",1,9,6,1859.58,-1.1734220669434,-1.84618113992229,"1",-0.827860610264842,"nonMP","0"
"301","23",1,10,1,1733.81,-1.1734220669434,-1.84618113992229,"1",-0.827860610264842,"vowelMP","0"
"302","23",1,11,7,1292.515,-1.1734220669434,-1.84618113992229,"1",-0.827860610264842,"consMP","0"
"303","23",0,12,12,989.245,-1.1734220669434,-1.84618113992229,"1",-0.827860610264842,"nonMP","0"
"304","23",1,16,18,2672.38,-1.1734220669434,-1.84618113992229,"1",-0.827860610264842,"nonMP","0"
"305","23",1,17,9,2398.96,-1.1734220669434,-1.84618113992229,"1",-0.827860610264842,"vowelMP","0"
"306","23",0,18,22,2377.155,-1.1734220669434,-1.84618113992229,"1",-0.827860610264842,"vowelMP","0"
"307","23",0,15,21,1008.12,-1.1734220669434,-1.84618113992229,"1",-0.827860610264842,"consMP","0"
"308","23",0,20,10,2478.63,-1.1734220669434,-1.84618113992229,"1",-0.827860610264842,"nonMP","0"
"309","23",1,21,5,824.785,-1.1734220669434,-1.84618113992229,"1",-0.827860610264842,"nonMP","0"
"310","23",0,22,15,3961.65,-1.1734220669434,-1.84618113992229,"1",-0.827860610264842,"nonMP","0"
"311","23",1,19,23,1070.03,-1.1734220669434,-1.84618113992229,"1",-0.827860610264842,"nonMP","0"
"312","23",1,23,16,2731.33,-1.1734220669434,-1.84618113992229,"1",-0.827860610264842,"nonMP","0"
"313","25",0,15,4,1853.16,-1.47933362738828,-1.00384964294873,"0",-0.240129953890208,"consMP","1"
"314","25",0,16,18,2505.625,-1.47933362738828,-1.00384964294873,"0",-0.240129953890208,"nonMP","1"
"315","25",1,17,16,2577.92,-1.47933362738828,-1.00384964294873,"0",-0.240129953890208,"nonMP","1"
"316","25",0,0,2,0,-1.47933362738828,-1.00384964294873,"0",-0.240129953890208,"nonMP","1"
"317","25",0,1,0,783.225,-1.47933362738828,-1.00384964294873,"0",-0.240129953890208,"nonMP","1"
"318","25",1,2,9,1451.66,-1.47933362738828,-1.00384964294873,"0",-0.240129953890208,"vowelMP","1"
"319","25",1,3,13,1268.28,-1.47933362738828,-1.00384964294873,"0",-0.240129953890208,"nonMP","1"
"320","25",0,18,5,2031.56,-1.47933362738828,-1.00384964294873,"0",-0.240129953890208,"nonMP","1"
"321","25",0,19,21,2003.83,-1.47933362738828,-1.00384964294873,"0",-0.240129953890208,"consMP","1"
"322","25",1,20,11,1768.74,-1.47933362738828,-1.00384964294873,"0",-0.240129953890208,"consMP","1"
"323","25",0,21,6,1185.96,-1.47933362738828,-1.00384964294873,"0",-0.240129953890208,"nonMP","1"
"324","25",0,22,22,825.48,-1.47933362738828,-1.00384964294873,"0",-0.240129953890208,"vowelMP","1"
"325","25",1,23,3,776.825,-1.47933362738828,-1.00384964294873,"0",-0.240129953890208,"nonMP","1"
"326","25",1,10,1,953.535,-1.47933362738828,-1.00384964294873,"0",-0.240129953890208,"vowelMP","1"
"327","25",1,11,8,3082.61,-1.47933362738828,-1.00384964294873,"0",-0.240129953890208,"vowelMP","1"
"328","25",1,12,7,2759.605,-1.47933362738828,-1.00384964294873,"0",-0.240129953890208,"consMP","1"
"329","25",1,13,20,1819.08,-1.47933362738828,-1.00384964294873,"0",-0.240129953890208,"nonMP","1"
"330","25",0,14,17,3111.815,-1.47933362738828,-1.00384964294873,"0",-0.240129953890208,"vowelMP","1"
"331","25",1,6,23,2720.3,-1.47933362738828,-1.00384964294873,"0",-0.240129953890208,"nonMP","1"
"332","25",1,7,15,1508.345,-1.47933362738828,-1.00384964294873,"0",-0.240129953890208,"nonMP","1"
"333","25",0,4,19,2609.74,-1.47933362738828,-1.00384964294873,"0",-0.240129953890208,"nonMP","1"
"334","25",0,5,14,2700.22,-1.47933362738828,-1.00384964294873,"0",-0.240129953890208,"consMP","1"
"335","25",0,8,12,2214.72,-1.47933362738828,-1.00384964294873,"0",-0.240129953890208,"nonMP","1"
"336","25",1,9,10,2603.405,-1.47933362738828,-1.00384964294873,"0",-0.240129953890208,"nonMP","1"
"337","26",1,5,6,989.765,1.10207194319864,0.311228762882214,"0",-0.436040172681752,"nonMP","0"
"338","26",1,6,21,1503.985,1.10207194319864,0.311228762882214,"0",-0.436040172681752,"consMP","0"
"339","26",1,0,8,3099.75,1.10207194319864,0.311228762882214,"0",-0.436040172681752,"vowelMP","0"
"340","26",1,1,3,1150.97,1.10207194319864,0.311228762882214,"0",-0.436040172681752,"nonMP","0"
"341","26",1,2,12,2021.71,1.10207194319864,0.311228762882214,"0",-0.436040172681752,"nonMP","0"
"342","26",1,3,16,1100.945,1.10207194319864,0.311228762882214,"0",-0.436040172681752,"nonMP","0"
"343","26",1,4,23,2047.19,1.10207194319864,0.311228762882214,"0",-0.436040172681752,"nonMP","0"
"344","26",1,17,22,4367.745,1.10207194319864,0.311228762882214,"0",-0.436040172681752,"vowelMP","0"
"345","26",0,18,0,4384.33,1.10207194319864,0.311228762882214,"0",-0.436040172681752,"nonMP","0"
"346","26",0,19,17,4255.545,1.10207194319864,0.311228762882214,"0",-0.436040172681752,"vowelMP","0"
"347","26",1,7,9,4072.84,1.10207194319864,0.311228762882214,"0",-0.436040172681752,"vowelMP","0"
"348","26",0,8,18,1036.425,1.10207194319864,0.311228762882214,"0",-0.436040172681752,"nonMP","0"
"349","26",1,9,14,2000.185,1.10207194319864,0.311228762882214,"0",-0.436040172681752,"consMP","0"
"350","26",1,10,5,3813.31,1.10207194319864,0.311228762882214,"0",-0.436040172681752,"nonMP","0"
"351","26",1,11,1,1586.42,1.10207194319864,0.311228762882214,"0",-0.436040172681752,"vowelMP","0"
"352","26",1,12,20,4046.47,1.10207194319864,0.311228762882214,"0",-0.436040172681752,"nonMP","0"
"353","26",1,13,7,1615.57,1.10207194319864,0.311228762882214,"0",-0.436040172681752,"consMP","0"
"354","26",0,14,11,4437.315,1.10207194319864,0.311228762882214,"0",-0.436040172681752,"consMP","0"
"355","26",1,15,4,4013.4,1.10207194319864,0.311228762882214,"0",-0.436040172681752,"consMP","0"
"356","26",1,16,19,2352.47,1.10207194319864,0.311228762882214,"0",-0.436040172681752,"nonMP","0"
"357","26",1,21,10,5151.995,1.10207194319864,0.311228762882214,"0",-0.436040172681752,"nonMP","0"
"358","26",1,22,2,4395.99,1.10207194319864,0.311228762882214,"0",-0.436040172681752,"nonMP","0"
"359","26",1,23,13,2282.145,1.10207194319864,0.311228762882214,"0",-0.436040172681752,"nonMP","0"
"360","26",1,20,15,4995.64,1.10207194319864,0.311228762882214,"0",-0.436040172681752,"nonMP","0"
"361","27",0,7,1,0,-1.38830503429623,-0.934962114660158,"1",-0.659937565586375,"vowelMP","0"
"362","27",0,8,14,0,-1.38830503429623,-0.934962114660158,"1",-0.659937565586375,"consMP","0"
"363","27",0,9,11,0,-1.38830503429623,-0.934962114660158,"1",-0.659937565586375,"consMP","0"
"364","27",0,14,10,1252.03,-1.38830503429623,-0.934962114660158,"1",-0.659937565586375,"nonMP","0"
"365","27",0,15,7,684.94,-1.38830503429623,-0.934962114660158,"1",-0.659937565586375,"consMP","0"
"366","27",1,16,15,1069.735,-1.38830503429623,-0.934962114660158,"1",-0.659937565586375,"nonMP","0"
"367","27",0,17,13,0,-1.38830503429623,-0.934962114660158,"1",-0.659937565586375,"nonMP","0"
"368","27",0,18,8,937.645,-1.38830503429623,-0.934962114660158,"1",-0.659937565586375,"vowelMP","0"
"369","27",1,19,23,922.395,-1.38830503429623,-0.934962114660158,"1",-0.659937565586375,"nonMP","0"
"370","27",1,20,4,1066.04,-1.38830503429623,-0.934962114660158,"1",-0.659937565586375,"consMP","0"
"371","27",0,21,3,0,-1.38830503429623,-0.934962114660158,"1",-0.659937565586375,"nonMP","0"
"372","27",0,22,2,0,-1.38830503429623,-0.934962114660158,"1",-0.659937565586375,"nonMP","0"
"373","27",0,10,6,0,-1.38830503429623,-0.934962114660158,"1",-0.659937565586375,"nonMP","0"
"374","27",1,11,21,2955.42,-1.38830503429623,-0.934962114660158,"1",-0.659937565586375,"consMP","0"
"375","27",0,12,0,0,-1.38830503429623,-0.934962114660158,"1",-0.659937565586375,"nonMP","0"
"376","27",1,13,16,1477.94,-1.38830503429623,-0.934962114660158,"1",-0.659937565586375,"nonMP","0"
"377","27",0,0,9,0,-1.38830503429623,-0.934962114660158,"1",-0.659937565586375,"vowelMP","0"
"378","27",0,1,17,0,-1.38830503429623,-0.934962114660158,"1",-0.659937565586375,"vowelMP","0"
"379","27",0,2,20,0,-1.38830503429623,-0.934962114660158,"1",-0.659937565586375,"nonMP","0"
"380","27",0,3,19,0,-1.38830503429623,-0.934962114660158,"1",-0.659937565586375,"nonMP","0"
"381","27",0,4,12,0,-1.38830503429623,-0.934962114660158,"1",-0.659937565586375,"nonMP","0"
"382","27",0,5,22,0,-1.38830503429623,-0.934962114660158,"1",-0.659937565586375,"vowelMP","0"
"383","27",0,6,5,0,-1.38830503429623,-0.934962114660158,"1",-0.659937565586375,"nonMP","0"
"384","27",1,23,18,849.83,-1.38830503429623,-0.934962114660158,"1",-0.659937565586375,"nonMP","0"
"385","29",0,9,23,2907.55,-0.102857848338366,-0.120116769470675,"1",-1.35961691841332,"nonMP","0"
"386","29",1,10,19,2818.8,-0.102857848338366,-0.120116769470675,"1",-1.35961691841332,"nonMP","0"
"387","29",0,11,17,2740.54,-0.102857848338366,-0.120116769470675,"1",-1.35961691841332,"vowelMP","0"
"388","29",0,23,0,1741.26,-0.102857848338366,-0.120116769470675,"1",-1.35961691841332,"nonMP","0"
"389","29",1,0,21,5225.66,-0.102857848338366,-0.120116769470675,"1",-1.35961691841332,"consMP","0"
"390","29",0,1,8,0,-0.102857848338366,-0.120116769470675,"1",-1.35961691841332,"vowelMP","0"
"391","29",0,2,9,1471.945,-0.102857848338366,-0.120116769470675,"1",-1.35961691841332,"vowelMP","0"
"392","29",0,3,12,5128.875,-0.102857848338366,-0.120116769470675,"1",-1.35961691841332,"nonMP","0"
"393","29",0,4,16,1520.175,-0.102857848338366,-0.120116769470675,"1",-1.35961691841332,"nonMP","0"
"394","29",1,5,14,4953.83,-0.102857848338366,-0.120116769470675,"1",-1.35961691841332,"consMP","0"
"395","29",1,6,4,3626.18,-0.102857848338366,-0.120116769470675,"1",-1.35961691841332,"consMP","0"
"396","29",1,7,11,991.11,-0.102857848338366,-0.120116769470675,"1",-1.35961691841332,"consMP","0"
"397","29",1,8,7,4092.4,-0.102857848338366,-0.120116769470675,"1",-1.35961691841332,"consMP","0"
"398","29",0,22,6,3197.545,-0.102857848338366,-0.120116769470675,"1",-1.35961691841332,"nonMP","0"
"399","29",1,14,1,4164.45,-0.102857848338366,-0.120116769470675,"1",-1.35961691841332,"vowelMP","0"
"400","29",0,15,15,2807.725,-0.102857848338366,-0.120116769470675,"1",-1.35961691841332,"nonMP","0"
"401","29",0,12,18,2877.825,-0.102857848338366,-0.120116769470675,"1",-1.35961691841332,"nonMP","0"
"402","29",0,13,13,1923.325,-0.102857848338366,-0.120116769470675,"1",-1.35961691841332,"nonMP","0"
"403","29",1,18,2,1709.32,-0.102857848338366,-0.120116769470675,"1",-1.35961691841332,"nonMP","0"
"404","29",0,19,20,2562.46,-0.102857848338366,-0.120116769470675,"1",-1.35961691841332,"nonMP","0"
"405","29",0,16,22,952.57,-0.102857848338366,-0.120116769470675,"1",-1.35961691841332,"vowelMP","0"
"406","29",1,17,10,2968.56,-0.102857848338366,-0.120116769470675,"1",-1.35961691841332,"nonMP","0"
"407","29",1,20,5,3272.72,-0.102857848338366,-0.120116769470675,"1",-1.35961691841332,"nonMP","0"
"408","29",1,21,3,961.39,-0.102857848338366,-0.120116769470675,"1",-1.35961691841332,"nonMP","0"
"409","30",1,1,0,2704.91,-1.37245162425386,0.275768107429327,"1",-0.799873436151764,"nonMP","0"
"410","30",1,2,20,2688.62,-1.37245162425386,0.275768107429327,"1",-0.799873436151764,"nonMP","0"
"411","30",1,0,12,5274.5,-1.37245162425386,0.275768107429327,"1",-0.799873436151764,"nonMP","0"
"412","30",0,14,19,5334.185,-1.37245162425386,0.275768107429327,"1",-0.799873436151764,"nonMP","0"
"413","30",1,15,13,5188.125,-1.37245162425386,0.275768107429327,"1",-0.799873436151764,"nonMP","0"
"414","30",1,3,9,4871.4,-1.37245162425386,0.275768107429327,"1",-0.799873436151764,"vowelMP","0"
"415","30",1,4,2,4996.025,-1.37245162425386,0.275768107429327,"1",-0.799873436151764,"nonMP","0"
"416","30",0,5,23,0,-1.37245162425386,0.275768107429327,"1",-0.799873436151764,"nonMP","0"
"417","30",0,6,16,4472.875,-1.37245162425386,0.275768107429327,"1",-0.799873436151764,"nonMP","0"
"418","30",0,7,5,5279.385,-1.37245162425386,0.275768107429327,"1",-0.799873436151764,"nonMP","0"
"419","30",0,8,18,0,-1.37245162425386,0.275768107429327,"1",-0.799873436151764,"nonMP","0"
"420","30",0,9,3,5011.315,-1.37245162425386,0.275768107429327,"1",-0.799873436151764,"nonMP","0"
"421","30",1,10,14,5172.13,-1.37245162425386,0.275768107429327,"1",-0.799873436151764,"consMP","0"
"422","30",1,11,8,4940.255,-1.37245162425386,0.275768107429327,"1",-0.799873436151764,"vowelMP","0"
"423","30",0,12,1,4859.64,-1.37245162425386,0.275768107429327,"1",-0.799873436151764,"vowelMP","0"
"424","30",0,13,7,5010.01,-1.37245162425386,0.275768107429327,"1",-0.799873436151764,"consMP","0"
"425","30",0,17,21,0,-1.37245162425386,0.275768107429327,"1",-0.799873436151764,"consMP","0"
"426","30",1,18,6,5193.825,-1.37245162425386,0.275768107429327,"1",-0.799873436151764,"nonMP","0"
"427","30",1,19,11,5198.005,-1.37245162425386,0.275768107429327,"1",-0.799873436151764,"consMP","0"
"428","30",1,16,10,5324.745,-1.37245162425386,0.275768107429327,"1",-0.799873436151764,"nonMP","0"
"429","30",1,21,15,5088.205,-1.37245162425386,0.275768107429327,"1",-0.799873436151764,"nonMP","0"
"430","30",1,22,4,5154.775,-1.37245162425386,0.275768107429327,"1",-0.799873436151764,"consMP","0"
"431","30",0,23,22,4850.11,-1.37245162425386,0.275768107429327,"1",-0.799873436151764,"vowelMP","0"
"432","30",1,20,17,5018.23,-1.37245162425386,0.275768107429327,"1",-0.799873436151764,"vowelMP","0"
"433","31",0,16,18,482.895,-1.21186053388154,-1.36724781498636,"0",-0.743899087925608,"nonMP","0"
"434","31",0,17,23,695.615,-1.21186053388154,-1.36724781498636,"0",-0.743899087925608,"nonMP","0"
"435","31",0,18,13,964.675,-1.21186053388154,-1.36724781498636,"0",-0.743899087925608,"nonMP","0"
"436","31",0,0,17,5303.13,-1.21186053388154,-1.36724781498636,"0",-0.743899087925608,"vowelMP","0"
"437","31",0,1,4,2357.885,-1.21186053388154,-1.36724781498636,"0",-0.743899087925608,"consMP","0"
"438","31",0,2,22,956.955,-1.21186053388154,-1.36724781498636,"0",-0.743899087925608,"vowelMP","0"
"439","31",0,3,5,2233.605,-1.21186053388154,-1.36724781498636,"0",-0.743899087925608,"nonMP","0"
"440","31",1,4,8,1698.665,-1.21186053388154,-1.36724781498636,"0",-0.743899087925608,"vowelMP","0"
"441","31",1,19,6,710.88,-1.21186053388154,-1.36724781498636,"0",-0.743899087925608,"nonMP","0"
"442","31",1,20,9,681.76,-1.21186053388154,-1.36724781498636,"0",-0.743899087925608,"vowelMP","0"
"443","31",0,21,19,1020.25,-1.21186053388154,-1.36724781498636,"0",-0.743899087925608,"nonMP","0"
"444","31",0,22,15,552.405,-1.21186053388154,-1.36724781498636,"0",-0.743899087925608,"nonMP","0"
"445","31",0,23,20,1000.665,-1.21186053388154,-1.36724781498636,"0",-0.743899087925608,"nonMP","0"
"446","31",1,10,12,1022.6,-1.21186053388154,-1.36724781498636,"0",-0.743899087925608,"nonMP","0"
"447","31",1,11,14,819.72,-1.21186053388154,-1.36724781498636,"0",-0.743899087925608,"consMP","0"
"448","31",0,12,16,309.575,-1.21186053388154,-1.36724781498636,"0",-0.743899087925608,"nonMP","0"
"449","31",1,13,2,1294.355,-1.21186053388154,-1.36724781498636,"0",-0.743899087925608,"nonMP","0"
"450","31",0,14,11,872.67,-1.21186053388154,-1.36724781498636,"0",-0.743899087925608,"consMP","0"
"451","31",1,15,7,956.515,-1.21186053388154,-1.36724781498636,"0",-0.743899087925608,"consMP","0"
"452","31",0,7,0,1234.4,-1.21186053388154,-1.36724781498636,"0",-0.743899087925608,"nonMP","0"
"453","31",0,8,1,1346.55,-1.21186053388154,-1.36724781498636,"0",-0.743899087925608,"vowelMP","0"
"454","31",0,5,3,1361.4,-1.21186053388154,-1.36724781498636,"0",-0.743899087925608,"nonMP","0"
"455","31",0,6,21,3997.66,-1.21186053388154,-1.36724781498636,"0",-0.743899087925608,"consMP","0"
"456","31",1,9,10,1035.045,-1.21186053388154,-1.36724781498636,"0",-0.743899087925608,"nonMP","0"
"457","33",1,10,16,5429.815,0.135414013125352,-1.28812686737155,"0",-0.771886262038686,"nonMP","0"
"458","33",1,8,5,4537.4,0.135414013125352,-1.28812686737155,"0",-0.771886262038686,"nonMP","0"
"459","33",1,9,7,5441.74,0.135414013125352,-1.28812686737155,"0",-0.771886262038686,"consMP","0"
"460","33",0,14,18,0,0.135414013125352,-1.28812686737155,"0",-0.771886262038686,"nonMP","0"
"461","33",0,15,21,5460.16,0.135414013125352,-1.28812686737155,"0",-0.771886262038686,"consMP","0"
"462","33",1,16,12,5310.98,0.135414013125352,-1.28812686737155,"0",-0.771886262038686,"nonMP","0"
"463","33",0,17,4,5353.28,0.135414013125352,-1.28812686737155,"0",-0.771886262038686,"consMP","0"
"464","33",0,18,19,0,0.135414013125352,-1.28812686737155,"0",-0.771886262038686,"nonMP","0"
"465","33",0,19,8,0,0.135414013125352,-1.28812686737155,"0",-0.771886262038686,"vowelMP","0"
"466","33",0,20,15,5410.39,0.135414013125352,-1.28812686737155,"0",-0.771886262038686,"nonMP","0"
"467","33",0,21,10,5405.13,0.135414013125352,-1.28812686737155,"0",-0.771886262038686,"nonMP","0"
"468","33",0,22,6,0,0.135414013125352,-1.28812686737155,"0",-0.771886262038686,"nonMP","0"
"469","33",1,23,17,5254.29,0.135414013125352,-1.28812686737155,"0",-0.771886262038686,"vowelMP","0"
"470","33",1,11,23,5419.195,0.135414013125352,-1.28812686737155,"0",-0.771886262038686,"nonMP","0"
"471","33",1,12,2,5438.95,0.135414013125352,-1.28812686737155,"0",-0.771886262038686,"nonMP","0"
"472","33",0,13,20,0,0.135414013125352,-1.28812686737155,"0",-0.771886262038686,"nonMP","0"
"473","33",0,0,14,0,0.135414013125352,-1.28812686737155,"0",-0.771886262038686,"consMP","0"
"474","33",1,1,9,2262.72,0.135414013125352,-1.28812686737155,"0",-0.771886262038686,"vowelMP","0"
"475","33",1,2,0,2660.235,0.135414013125352,-1.28812686737155,"0",-0.771886262038686,"nonMP","0"
"476","33",0,3,22,2526.105,0.135414013125352,-1.28812686737155,"0",-0.771886262038686,"vowelMP","0"
"477","33",1,4,3,4252.76,0.135414013125352,-1.28812686737155,"0",-0.771886262038686,"nonMP","0"
"478","33",1,5,1,2237.345,0.135414013125352,-1.28812686737155,"0",-0.771886262038686,"vowelMP","0"
"479","33",0,6,11,2479.97,0.135414013125352,-1.28812686737155,"0",-0.771886262038686,"consMP","0"
"480","33",1,7,13,2469.485,0.135414013125352,-1.28812686737155,"0",-0.771886262038686,"nonMP","0"
"481","35",0,0,17,1377.105,-0.402719215869295,0.648894327142629,"0",0.123703309579804,"vowelMP","1"
"482","35",0,1,8,2719.56,-0.402719215869295,0.648894327142629,"0",0.123703309579804,"vowelMP","1"
"483","35",1,2,1,2392.39,-0.402719215869295,0.648894327142629,"0",0.123703309579804,"vowelMP","1"
"484","35",1,3,12,2849.155,-0.402719215869295,0.648894327142629,"0",0.123703309579804,"nonMP","1"
"485","35",0,4,14,3276.285,-0.402719215869295,0.648894327142629,"0",0.123703309579804,"consMP","1"
"486","35",1,5,7,3007.53,-0.402719215869295,0.648894327142629,"0",0.123703309579804,"consMP","1"
"487","35",0,6,4,3159.905,-0.402719215869295,0.648894327142629,"0",0.123703309579804,"consMP","1"
"488","35",0,7,23,2146.19,-0.402719215869295,0.648894327142629,"0",0.123703309579804,"nonMP","1"
"489","35",1,8,6,1515.5,-0.402719215869295,0.648894327142629,"0",0.123703309579804,"nonMP","1"
"490","35",0,9,16,2328.7,-0.402719215869295,0.648894327142629,"0",0.123703309579804,"nonMP","1"
"491","35",1,10,3,4782.38,-0.402719215869295,0.648894327142629,"0",0.123703309579804,"nonMP","1"
"492","35",0,11,21,2911.85,-0.402719215869295,0.648894327142629,"0",0.123703309579804,"consMP","1"
"493","35",1,12,20,3635.27,-0.402719215869295,0.648894327142629,"0",0.123703309579804,"nonMP","1"
"494","35",1,13,10,3493.985,-0.402719215869295,0.648894327142629,"0",0.123703309579804,"nonMP","1"
"495","35",0,14,9,2669.86,-0.402719215869295,0.648894327142629,"0",0.123703309579804,"vowelMP","1"
"496","35",1,15,11,2461.25,-0.402719215869295,0.648894327142629,"0",0.123703309579804,"consMP","1"
"497","35",0,16,2,3559.48,-0.402719215869295,0.648894327142629,"0",0.123703309579804,"nonMP","1"
"498","35",1,17,22,4914.53,-0.402719215869295,0.648894327142629,"0",0.123703309579804,"vowelMP","1"
"499","35",0,18,15,4203.78,-0.402719215869295,0.648894327142629,"0",0.123703309579804,"nonMP","1"
"500","35",0,19,19,0,-0.402719215869295,0.648894327142629,"0",0.123703309579804,"nonMP","1"
"501","35",0,20,0,2727.985,-0.402719215869295,0.648894327142629,"0",0.123703309579804,"nonMP","1"
"502","35",0,21,13,2851.995,-0.402719215869295,0.648894327142629,"0",0.123703309579804,"nonMP","1"
"503","35",1,22,5,3696.995,-0.402719215869295,0.648894327142629,"0",0.123703309579804,"nonMP","1"
"504","35",1,23,18,2508.485,-0.402719215869295,0.648894327142629,"0",0.123703309579804,"nonMP","1"
"505","37",0,0,20,0,-1.43185391024152,-0.932418072501046,"0",-0.0442197350986629,"nonMP","1"
"506","37",0,1,19,0,-1.43185391024152,-0.932418072501046,"0",-0.0442197350986629,"nonMP","1"
"507","37",0,2,11,2341.935,-1.43185391024152,-0.932418072501046,"0",-0.0442197350986629,"consMP","1"
"508","37",0,3,22,2004.045,-1.43185391024152,-0.932418072501046,"0",-0.0442197350986629,"vowelMP","1"
"509","37",0,4,1,1839.93,-1.43185391024152,-0.932418072501046,"0",-0.0442197350986629,"vowelMP","1"
"510","37",1,5,4,3053.045,-1.43185391024152,-0.932418072501046,"0",-0.0442197350986629,"consMP","1"
"511","37",1,6,13,1910.4,-1.43185391024152,-0.932418072501046,"0",-0.0442197350986629,"nonMP","1"
"512","37",1,7,14,3037.305,-1.43185391024152,-0.932418072501046,"0",-0.0442197350986629,"consMP","1"
"513","37",1,8,2,2156.965,-1.43185391024152,-0.932418072501046,"0",-0.0442197350986629,"nonMP","1"
"514","37",0,9,7,1720.46,-1.43185391024152,-0.932418072501046,"0",-0.0442197350986629,"consMP","1"
"515","37",0,10,6,2849.455,-1.43185391024152,-0.932418072501046,"0",-0.0442197350986629,"nonMP","1"
"516","37",1,11,8,3206.02,-1.43185391024152,-0.932418072501046,"0",-0.0442197350986629,"vowelMP","1"
"517","37",1,12,3,1914.785,-1.43185391024152,-0.932418072501046,"0",-0.0442197350986629,"nonMP","1"
"518","37",0,13,0,2127.655,-1.43185391024152,-0.932418072501046,"0",-0.0442197350986629,"nonMP","1"
"519","37",1,14,17,3173.77,-1.43185391024152,-0.932418072501046,"0",-0.0442197350986629,"vowelMP","1"
"520","37",0,15,10,0,-1.43185391024152,-0.932418072501046,"0",-0.0442197350986629,"nonMP","1"
"521","37",1,16,12,3773.805,-1.43185391024152,-0.932418072501046,"0",-0.0442197350986629,"nonMP","1"
"522","37",0,17,15,3320.645,-1.43185391024152,-0.932418072501046,"0",-0.0442197350986629,"nonMP","1"
"523","37",0,18,23,1212.865,-1.43185391024152,-0.932418072501046,"0",-0.0442197350986629,"nonMP","1"
"524","37",0,19,9,4487.84,-1.43185391024152,-0.932418072501046,"0",-0.0442197350986629,"vowelMP","1"
"525","37",1,20,5,3433.88,-1.43185391024152,-0.932418072501046,"0",-0.0442197350986629,"nonMP","1"
"526","37",0,21,21,3773.545,-1.43185391024152,-0.932418072501046,"0",-0.0442197350986629,"consMP","1"
"527","37",0,22,18,2157.965,-1.43185391024152,-0.932418072501046,"0",-0.0442197350986629,"nonMP","1"
"528","37",1,23,16,1683.23,-1.43185391024152,-0.932418072501046,"0",-0.0442197350986629,"nonMP","1"
"529","41",0,0,0,0,-1.39625259432869,0.185569942309061,"0",-0.408052998568674,"nonMP","1"
"530","41",0,1,5,3840.2,-1.39625259432869,0.185569942309061,"0",-0.408052998568674,"nonMP","1"
"531","41",1,2,9,2062.58,-1.39625259432869,0.185569942309061,"0",-0.408052998568674,"vowelMP","1"
"532","41",1,3,6,746.72,-1.39625259432869,0.185569942309061,"0",-0.408052998568674,"nonMP","1"
"533","41",1,4,4,983.51,-1.39625259432869,0.185569942309061,"0",-0.408052998568674,"consMP","1"
"534","41",1,5,7,1251.225,-1.39625259432869,0.185569942309061,"0",-0.408052998568674,"consMP","1"
"535","41",0,6,15,727.56,-1.39625259432869,0.185569942309061,"0",-0.408052998568674,"nonMP","1"
"536","41",1,7,18,1493.005,-1.39625259432869,0.185569942309061,"0",-0.408052998568674,"nonMP","1"
"537","41",1,8,13,923.51,-1.39625259432869,0.185569942309061,"0",-0.408052998568674,"nonMP","1"
"538","41",0,9,23,1023.07,-1.39625259432869,0.185569942309061,"0",-0.408052998568674,"nonMP","1"
"539","41",1,10,12,1005.01,-1.39625259432869,0.185569942309061,"0",-0.408052998568674,"nonMP","1"
"540","41",1,11,21,1093.355,-1.39625259432869,0.185569942309061,"0",-0.408052998568674,"consMP","1"
"541","41",0,12,22,878.275,-1.39625259432869,0.185569942309061,"0",-0.408052998568674,"vowelMP","1"
"542","41",1,13,2,963.71,-1.39625259432869,0.185569942309061,"0",-0.408052998568674,"nonMP","1"
"543","41",1,14,1,1070.075,-1.39625259432869,0.185569942309061,"0",-0.408052998568674,"vowelMP","1"
"544","41",1,15,16,953.585,-1.39625259432869,0.185569942309061,"0",-0.408052998568674,"nonMP","1"
"545","41",0,16,11,937.405,-1.39625259432869,0.185569942309061,"0",-0.408052998568674,"consMP","1"
"546","41",1,17,8,966.285,-1.39625259432869,0.185569942309061,"0",-0.408052998568674,"vowelMP","1"
"547","41",1,18,14,799.13,-1.39625259432869,0.185569942309061,"0",-0.408052998568674,"consMP","1"
"548","41",0,19,20,766.935,-1.39625259432869,0.185569942309061,"0",-0.408052998568674,"nonMP","1"
"549","41",0,20,10,907.045,-1.39625259432869,0.185569942309061,"0",-0.408052998568674,"nonMP","1"
"550","41",0,21,17,857.16,-1.39625259432869,0.185569942309061,"0",-0.408052998568674,"vowelMP","1"
"551","41",0,22,3,1039.03,-1.39625259432869,0.185569942309061,"0",-0.408052998568674,"nonMP","1"
"552","41",0,23,19,941.47,-1.39625259432869,0.185569942309061,"0",-0.408052998568674,"nonMP","1"
"553","47",0,0,12,0,-1.33564743010597,-0.378754100058421,"1",0.319613528371349,"nonMP","1"
"554","47",1,1,9,2735.685,-1.33564743010597,-0.378754100058421,"1",0.319613528371349,"vowelMP","1"
"555","47",0,2,20,4821.65,-1.33564743010597,-0.378754100058421,"1",0.319613528371349,"nonMP","1"
"556","47",0,3,13,2639.44,-1.33564743010597,-0.378754100058421,"1",0.319613528371349,"nonMP","1"
"557","47",1,4,23,5284.95,-1.33564743010597,-0.378754100058421,"1",0.319613528371349,"nonMP","1"
"558","47",0,5,6,2362.66,-1.33564743010597,-0.378754100058421,"1",0.319613528371349,"nonMP","1"
"559","47",0,6,10,3325.485,-1.33564743010597,-0.378754100058421,"1",0.319613528371349,"nonMP","1"
"560","47",1,7,17,1994.805,-1.33564743010597,-0.378754100058421,"1",0.319613528371349,"vowelMP","1"
"561","47",1,8,2,3261.61,-1.33564743010597,-0.378754100058421,"1",0.319613528371349,"nonMP","1"
"562","47",0,9,19,0,-1.33564743010597,-0.378754100058421,"1",0.319613528371349,"nonMP","1"
"563","47",1,10,0,4451.365,-1.33564743010597,-0.378754100058421,"1",0.319613528371349,"nonMP","1"
"564","47",0,11,11,2361.965,-1.33564743010597,-0.378754100058421,"1",0.319613528371349,"consMP","1"
"565","47",0,12,22,0,-1.33564743010597,-0.378754100058421,"1",0.319613528371349,"vowelMP","1"
"566","47",1,13,7,3943.905,-1.33564743010597,-0.378754100058421,"1",0.319613528371349,"consMP","1"
"567","47",0,14,4,0,-1.33564743010597,-0.378754100058421,"1",0.319613528371349,"consMP","1"
"568","47",0,15,21,2833.28,-1.33564743010597,-0.378754100058421,"1",0.319613528371349,"consMP","1"
"569","47",0,16,15,2859.54,-1.33564743010597,-0.378754100058421,"1",0.319613528371349,"nonMP","1"
"570","47",1,17,14,3465.95,-1.33564743010597,-0.378754100058421,"1",0.319613528371349,"consMP","1"
"571","47",1,18,5,25.725,-1.33564743010597,-0.378754100058421,"1",0.319613528371349,"nonMP","1"
"572","47",1,19,8,4404.865,-1.33564743010597,-0.378754100058421,"1",0.319613528371349,"vowelMP","1"
"573","47",0,20,1,3975.96,-1.33564743010597,-0.378754100058421,"1",0.319613528371349,"vowelMP","1"
"574","47",0,21,18,0,-1.33564743010597,-0.378754100058421,"1",0.319613528371349,"nonMP","1"
"575","47",0,22,16,0,-1.33564743010597,-0.378754100058421,"1",0.319613528371349,"nonMP","1"
"576","47",0,23,3,0,-1.33564743010597,-0.378754100058421,"1",0.319613528371349,"nonMP","1"
"577","49",1,0,15,4848.46,-0.348243383864287,0.655777201508808,"0",-1.05175800316946,"nonMP","0"
"578","49",1,1,14,2167.9,-0.348243383864287,0.655777201508808,"0",-1.05175800316946,"consMP","0"
"579","49",1,2,11,2086.46,-0.348243383864287,0.655777201508808,"0",-1.05175800316946,"consMP","0"
"580","49",1,3,6,1360.485,-0.348243383864287,0.655777201508808,"0",-1.05175800316946,"nonMP","0"
"581","49",0,4,17,2338.785,-0.348243383864287,0.655777201508808,"0",-1.05175800316946,"vowelMP","0"
"582","49",0,5,9,2662.115,-0.348243383864287,0.655777201508808,"0",-1.05175800316946,"vowelMP","0"
"583","49",1,6,21,3833.785,-0.348243383864287,0.655777201508808,"0",-1.05175800316946,"consMP","0"
"584","49",1,7,2,3739.81,-0.348243383864287,0.655777201508808,"0",-1.05175800316946,"nonMP","0"
"585","49",1,8,1,988.11,-0.348243383864287,0.655777201508808,"0",-1.05175800316946,"vowelMP","0"
"586","49",1,9,19,3034.815,-0.348243383864287,0.655777201508808,"0",-1.05175800316946,"nonMP","0"
"587","49",1,10,0,2140.88,-0.348243383864287,0.655777201508808,"0",-1.05175800316946,"nonMP","0"
"588","49",0,11,23,1689.65,-0.348243383864287,0.655777201508808,"0",-1.05175800316946,"nonMP","0"
"589","49",1,12,4,2486.575,-0.348243383864287,0.655777201508808,"0",-1.05175800316946,"consMP","0"
"590","49",1,13,20,2222.21,-0.348243383864287,0.655777201508808,"0",-1.05175800316946,"nonMP","0"
"591","49",1,14,10,2343.41,-0.348243383864287,0.655777201508808,"0",-1.05175800316946,"nonMP","0"
"592","49",1,15,18,2108.28,-0.348243383864287,0.655777201508808,"0",-1.05175800316946,"nonMP","0"
"593","49",0,16,22,2168.075,-0.348243383864287,0.655777201508808,"0",-1.05175800316946,"vowelMP","0"
"594","49",1,17,7,2226.14,-0.348243383864287,0.655777201508808,"0",-1.05175800316946,"consMP","0"
"595","49",1,18,3,2600.71,-0.348243383864287,0.655777201508808,"0",-1.05175800316946,"nonMP","0"
"596","49",1,19,5,2891.255,-0.348243383864287,0.655777201508808,"0",-1.05175800316946,"nonMP","0"
"597","49",0,20,16,1620.785,-0.348243383864287,0.655777201508808,"0",-1.05175800316946,"nonMP","0"
"598","49",1,21,12,1592.815,-0.348243383864287,0.655777201508808,"0",-1.05175800316946,"nonMP","0"
"599","49",1,22,8,1941.905,-0.348243383864287,0.655777201508808,"0",-1.05175800316946,"vowelMP","0"
"600","49",0,23,13,2740.755,-0.348243383864287,0.655777201508808,"0",-1.05175800316946,"nonMP","0"
"601","5",1,0,15,3710.38,2.31684122575267,0.0830882078667459,"1",-0.492014520907908,"nonMP","0"
"602","5",0,1,22,2452.615,2.31684122575267,0.0830882078667459,"1",-0.492014520907908,"vowelMP","0"
"603","5",1,2,1,2958.695,2.31684122575267,0.0830882078667459,"1",-0.492014520907908,"vowelMP","0"
"604","5",0,3,4,4155.53,2.31684122575267,0.0830882078667459,"1",-0.492014520907908,"consMP","0"
"605","5",0,4,23,2733.465,2.31684122575267,0.0830882078667459,"1",-0.492014520907908,"nonMP","0"
"606","5",1,5,17,2324.53,2.31684122575267,0.0830882078667459,"1",-0.492014520907908,"vowelMP","0"
"607","5",1,6,16,2322.745,2.31684122575267,0.0830882078667459,"1",-0.492014520907908,"nonMP","0"
"608","5",0,7,0,2122.19,2.31684122575267,0.0830882078667459,"1",-0.492014520907908,"nonMP","0"
"609","5",0,8,13,2093.585,2.31684122575267,0.0830882078667459,"1",-0.492014520907908,"nonMP","0"
"610","5",1,9,3,2206.435,2.31684122575267,0.0830882078667459,"1",-0.492014520907908,"nonMP","0"
"611","5",1,10,2,4915.86,2.31684122575267,0.0830882078667459,"1",-0.492014520907908,"nonMP","0"
"612","5",0,11,6,0,2.31684122575267,0.0830882078667459,"1",-0.492014520907908,"nonMP","0"
"613","5",1,12,5,3302.615,2.31684122575267,0.0830882078667459,"1",-0.492014520907908,"nonMP","0"
"614","5",1,13,9,703.02,2.31684122575267,0.0830882078667459,"1",-0.492014520907908,"vowelMP","0"
"615","5",1,14,7,2176.61,2.31684122575267,0.0830882078667459,"1",-0.492014520907908,"consMP","0"
"616","5",0,15,11,2241.645,2.31684122575267,0.0830882078667459,"1",-0.492014520907908,"consMP","0"
"617","5",1,16,21,3558.595,2.31684122575267,0.0830882078667459,"1",-0.492014520907908,"consMP","0"
"618","5",1,17,8,2405.23,2.31684122575267,0.0830882078667459,"1",-0.492014520907908,"vowelMP","0"
"619","5",0,18,14,2231.745,2.31684122575267,0.0830882078667459,"1",-0.492014520907908,"consMP","0"
"620","5",0,19,10,2727.935,2.31684122575267,0.0830882078667459,"1",-0.492014520907908,"nonMP","0"
"621","5",1,20,12,1850.9,2.31684122575267,0.0830882078667459,"1",-0.492014520907908,"nonMP","0"
"622","5",1,21,20,4006.02,2.31684122575267,0.0830882078667459,"1",-0.492014520907908,"nonMP","0"
"623","5",1,22,19,2309.69,2.31684122575267,0.0830882078667459,"1",-0.492014520907908,"nonMP","0"
"624","5",1,23,18,1916.445,2.31684122575267,0.0830882078667459,"1",-0.492014520907908,"nonMP","0"
"625","6",0,0,5,0,-0.187942265752976,0.232472379513778,"1",-1.05175800316946,"nonMP","0"
"626","6",1,1,7,4455,-0.187942265752976,0.232472379513778,"1",-1.05175800316946,"consMP","0"
"627","6",1,2,0,4252,-0.187942265752976,0.232472379513778,"1",-1.05175800316946,"nonMP","0"
"628","6",1,3,13,587,-0.187942265752976,0.232472379513778,"1",-1.05175800316946,"nonMP","0"
"629","6",1,4,6,2102,-0.187942265752976,0.232472379513778,"1",-1.05175800316946,"nonMP","0"
"630","6",1,5,2,4870,-0.187942265752976,0.232472379513778,"1",-1.05175800316946,"nonMP","0"
"631","6",1,6,21,1869,-0.187942265752976,0.232472379513778,"1",-1.05175800316946,"consMP","0"
"632","6",0,7,4,3411,-0.187942265752976,0.232472379513778,"1",-1.05175800316946,"consMP","0"
"633","6",1,8,3,2268,-0.187942265752976,0.232472379513778,"1",-1.05175800316946,"nonMP","0"
"634","6",1,9,18,2119,-0.187942265752976,0.232472379513778,"1",-1.05175800316946,"nonMP","0"
"635","6",1,10,22,3318,-0.187942265752976,0.232472379513778,"1",-1.05175800316946,"vowelMP","0"
"636","6",0,11,15,3403,-0.187942265752976,0.232472379513778,"1",-1.05175800316946,"nonMP","0"
"637","6",1,12,19,4810,-0.187942265752976,0.232472379513778,"1",-1.05175800316946,"nonMP","0"
"638","6",1,13,10,3353,-0.187942265752976,0.232472379513778,"1",-1.05175800316946,"nonMP","0"
"639","6",0,14,16,3353,-0.187942265752976,0.232472379513778,"1",-1.05175800316946,"nonMP","0"
"640","6",1,15,17,3385,-0.187942265752976,0.232472379513778,"1",-1.05175800316946,"vowelMP","0"
"641","6",1,16,23,4738,-0.187942265752976,0.232472379513778,"1",-1.05175800316946,"nonMP","0"
"642","6",1,17,20,4901,-0.187942265752976,0.232472379513778,"1",-1.05175800316946,"nonMP","0"
"643","6",1,18,8,886,-0.187942265752976,0.232472379513778,"1",-1.05175800316946,"vowelMP","0"
"644","6",1,19,14,3469,-0.187942265752976,0.232472379513778,"1",-1.05175800316946,"consMP","0"
"645","6",1,20,1,3423,-0.187942265752976,0.232472379513778,"1",-1.05175800316946,"vowelMP","0"
"646","6",1,21,11,4769,-0.187942265752976,0.232472379513778,"1",-1.05175800316946,"consMP","0"
"647","6",0,22,12,4941,-0.187942265752976,0.232472379513778,"1",-1.05175800316946,"nonMP","0"
"648","6",1,23,9,4903,-0.187942265752976,0.232472379513778,"1",-1.05175800316946,"vowelMP","0"
"649","7",1,0,12,807,-1.37731467957276,-0.0606928416955679,"1",0.123703309579804,"nonMP","1"
"650","7",0,1,7,952,-1.37731467957276,-0.0606928416955679,"1",0.123703309579804,"consMP","1"
"651","7",0,2,8,2659,-1.37731467957276,-0.0606928416955679,"1",0.123703309579804,"vowelMP","1"
"652","7",1,3,14,2159,-1.37731467957276,-0.0606928416955679,"1",0.123703309579804,"consMP","1"
"653","7",0,4,3,2221,-1.37731467957276,-0.0606928416955679,"1",0.123703309579804,"nonMP","1"
"654","7",1,5,18,1185,-1.37731467957276,-0.0606928416955679,"1",0.123703309579804,"nonMP","1"
"655","7",1,6,10,3566,-1.37731467957276,-0.0606928416955679,"1",0.123703309579804,"nonMP","1"
"656","7",1,7,0,4799,-1.37731467957276,-0.0606928416955679,"1",0.123703309579804,"nonMP","1"
"657","7",0,8,19,3399,-1.37731467957276,-0.0606928416955679,"1",0.123703309579804,"nonMP","1"
"658","7",1,9,20,867,-1.37731467957276,-0.0606928416955679,"1",0.123703309579804,"nonMP","1"
"659","7",1,10,5,1884,-1.37731467957276,-0.0606928416955679,"1",0.123703309579804,"nonMP","1"
"660","7",1,11,11,2317,-1.37731467957276,-0.0606928416955679,"1",0.123703309579804,"consMP","1"
"661","7",1,12,6,1000,-1.37731467957276,-0.0606928416955679,"1",0.123703309579804,"nonMP","1"
"662","7",0,13,9,3074,-1.37731467957276,-0.0606928416955679,"1",0.123703309579804,"vowelMP","1"
"663","7",1,14,1,2034,-1.37731467957276,-0.0606928416955679,"1",0.123703309579804,"vowelMP","1"
"664","7",1,15,15,2055,-1.37731467957276,-0.0606928416955679,"1",0.123703309579804,"nonMP","1"
"665","7",1,16,4,718,-1.37731467957276,-0.0606928416955679,"1",0.123703309579804,"consMP","1"
"666","7",0,17,2,1884,-1.37731467957276,-0.0606928416955679,"1",0.123703309579804,"nonMP","1"
"667","7",1,18,23,488,-1.37731467957276,-0.0606928416955679,"1",0.123703309579804,"nonMP","1"
"668","7",0,19,22,3399,-1.37731467957276,-0.0606928416955679,"1",0.123703309579804,"vowelMP","1"
"669","7",1,20,16,542,-1.37731467957276,-0.0606928416955679,"1",0.123703309579804,"nonMP","1"
"670","7",1,21,21,2556,-1.37731467957276,-0.0606928416955679,"1",0.123703309579804,"consMP","1"
"671","7",0,22,13,3367,-1.37731467957276,-0.0606928416955679,"1",0.123703309579804,"nonMP","1"
"672","7",1,23,17,3387,-1.37731467957276,-0.0606928416955679,"1",0.123703309579804,"vowelMP","1"
"673","8",0,0,23,0,-1.01252266842338,0.432787107655,"1",-0.71591191381253,"nonMP","0"
"674","8",0,1,10,0,-1.01252266842338,0.432787107655,"1",-0.71591191381253,"nonMP","0"
"675","8",0,2,22,0,-1.01252266842338,0.432787107655,"1",-0.71591191381253,"vowelMP","0"
"676","8",0,3,17,0,-1.01252266842338,0.432787107655,"1",-0.71591191381253,"vowelMP","0"
"677","8",0,4,7,0,-1.01252266842338,0.432787107655,"1",-0.71591191381253,"consMP","0"
"678","8",1,5,8,601.36,-1.01252266842338,0.432787107655,"1",-0.71591191381253,"vowelMP","0"
"679","8",1,6,6,2018.845,-1.01252266842338,0.432787107655,"1",-0.71591191381253,"nonMP","0"
"680","8",0,7,15,690.35,-1.01252266842338,0.432787107655,"1",-0.71591191381253,"nonMP","0"
"681","8",1,8,5,4404.715,-1.01252266842338,0.432787107655,"1",-0.71591191381253,"nonMP","0"
"682","8",1,9,3,4797.22,-1.01252266842338,0.432787107655,"1",-0.71591191381253,"nonMP","0"
"683","8",1,10,14,2510.415,-1.01252266842338,0.432787107655,"1",-0.71591191381253,"consMP","0"
"684","8",1,11,21,2136.43,-1.01252266842338,0.432787107655,"1",-0.71591191381253,"consMP","0"
"685","8",1,12,18,2360.735,-1.01252266842338,0.432787107655,"1",-0.71591191381253,"nonMP","0"
"686","8",1,13,4,2337.95,-1.01252266842338,0.432787107655,"1",-0.71591191381253,"consMP","0"
"687","8",1,14,1,3275.725,-1.01252266842338,0.432787107655,"1",-0.71591191381253,"vowelMP","0"
"688","8",1,15,13,3244.285,-1.01252266842338,0.432787107655,"1",-0.71591191381253,"nonMP","0"
"689","8",1,16,0,3389.935,-1.01252266842338,0.432787107655,"1",-0.71591191381253,"nonMP","0"
"690","8",1,17,16,1894.57,-1.01252266842338,0.432787107655,"1",-0.71591191381253,"nonMP","0"
"691","8",1,18,19,1944.18,-1.01252266842338,0.432787107655,"1",-0.71591191381253,"nonMP","0"
"692","8",1,19,20,1737.295,-1.01252266842338,0.432787107655,"1",-0.71591191381253,"nonMP","0"
"693","8",1,20,2,1868.345,-1.01252266842338,0.432787107655,"1",-0.71591191381253,"nonMP","0"
"694","8",1,21,9,1820.325,-1.01252266842338,0.432787107655,"1",-0.71591191381253,"vowelMP","0"
"695","8",1,22,11,1854.39,-1.01252266842338,0.432787107655,"1",-0.71591191381253,"consMP","0"
"696","8",1,23,12,678.445,-1.01252266842338,0.432787107655,"1",-0.71591191381253,"nonMP","0"
"697","9",0,0,16,0,-1.53752588730946,-0.317575656107867,"0",-0.547988869134064,"nonMP","0"
"698","9",1,1,18,5324.03,-1.53752588730946,-0.317575656107867,"0",-0.547988869134064,"nonMP","0"
"699","9",1,2,15,4939.61,-1.53752588730946,-0.317575656107867,"0",-0.547988869134064,"nonMP","0"
"700","9",0,3,5,5337.555,-1.53752588730946,-0.317575656107867,"0",-0.547988869134064,"nonMP","0"
"701","9",0,4,12,4187.325,-1.53752588730946,-0.317575656107867,"0",-0.547988869134064,"nonMP","0"
"702","9",1,5,11,5375.58,-1.53752588730946,-0.317575656107867,"0",-0.547988869134064,"consMP","0"
"703","9",0,6,17,3258.69,-1.53752588730946,-0.317575656107867,"0",-0.547988869134064,"vowelMP","0"
"704","9",1,7,4,5444.555,-1.53752588730946,-0.317575656107867,"0",-0.547988869134064,"consMP","0"
"705","9",0,8,19,4886.81,-1.53752588730946,-0.317575656107867,"0",-0.547988869134064,"nonMP","0"
"706","9",1,9,6,3318.85,-1.53752588730946,-0.317575656107867,"0",-0.547988869134064,"nonMP","0"
"707","9",1,10,3,5246.04,-1.53752588730946,-0.317575656107867,"0",-0.547988869134064,"nonMP","0"
"708","9",0,11,13,3423.335,-1.53752588730946,-0.317575656107867,"0",-0.547988869134064,"nonMP","0"
"709","9",1,12,22,5121.67,-1.53752588730946,-0.317575656107867,"0",-0.547988869134064,"vowelMP","0"
"710","9",0,13,0,0,-1.53752588730946,-0.317575656107867,"0",-0.547988869134064,"nonMP","0"
"711","9",1,14,9,2610.32,-1.53752588730946,-0.317575656107867,"0",-0.547988869134064,"vowelMP","0"
"712","9",0,15,21,2521.02,-1.53752588730946,-0.317575656107867,"0",-0.547988869134064,"consMP","0"
"713","9",0,16,7,3768.44,-1.53752588730946,-0.317575656107867,"0",-0.547988869134064,"consMP","0"
"714","9",0,17,20,4022.335,-1.53752588730946,-0.317575656107867,"0",-0.547988869134064,"nonMP","0"
"715","9",1,18,1,4453.155,-1.53752588730946,-0.317575656107867,"0",-0.547988869134064,"vowelMP","0"
"716","9",0,19,8,2873.955,-1.53752588730946,-0.317575656107867,"0",-0.547988869134064,"vowelMP","0"
"717","9",0,20,2,1944.19,-1.53752588730946,-0.317575656107867,"0",-0.547988869134064,"nonMP","0"
"718","9",0,21,23,3851.425,-1.53752588730946,-0.317575656107867,"0",-0.547988869134064,"nonMP","0"
"719","9",1,22,10,3869.075,-1.53752588730946,-0.317575656107867,"0",-0.547988869134064,"nonMP","0"
"720","9",0,23,14,3073.28,-1.53752588730946,-0.317575656107867,"0",-0.547988869134064,"consMP","0"
"721","Test3",0,0,9,0,-0.31395877947616,0.391793299994706,"1",-0.380065824455597,"vowelMP","1"
"722","Test3",0,1,16,3015.31,-0.31395877947616,0.391793299994706,"1",-0.380065824455597,"nonMP","1"
"723","Test3",1,2,18,2214.705,-0.31395877947616,0.391793299994706,"1",-0.380065824455597,"nonMP","1"
"724","Test3",1,3,0,682.58,-0.31395877947616,0.391793299994706,"1",-0.380065824455597,"nonMP","1"
"725","Test3",1,4,19,921.905,-0.31395877947616,0.391793299994706,"1",-0.380065824455597,"nonMP","1"
"726","Test3",0,5,3,1028.275,-0.31395877947616,0.391793299994706,"1",-0.380065824455597,"nonMP","1"
"727","Test3",1,6,10,1123.085,-0.31395877947616,0.391793299994706,"1",-0.380065824455597,"nonMP","1"
"728","Test3",1,7,7,937.6,-0.31395877947616,0.391793299994706,"1",-0.380065824455597,"consMP","1"
"729","Test3",0,8,17,1502.445,-0.31395877947616,0.391793299994706,"1",-0.380065824455597,"vowelMP","1"
"730","Test3",0,9,4,2902.5,-0.31395877947616,0.391793299994706,"1",-0.380065824455597,"consMP","1"
"731","Test3",0,10,1,1388.24,-0.31395877947616,0.391793299994706,"1",-0.380065824455597,"vowelMP","1"
"732","Test3",1,11,21,1313.25,-0.31395877947616,0.391793299994706,"1",-0.380065824455597,"consMP","1"
"733","Test3",0,12,20,2038.53,-0.31395877947616,0.391793299994706,"1",-0.380065824455597,"nonMP","1"
"734","Test3",1,13,5,833.885,-0.31395877947616,0.391793299994706,"1",-0.380065824455597,"nonMP","1"
"735","Test3",1,14,15,2574.15,-0.31395877947616,0.391793299994706,"1",-0.380065824455597,"nonMP","1"
"736","Test3",0,15,23,2138.605,-0.31395877947616,0.391793299994706,"1",-0.380065824455597,"nonMP","1"
"737","Test3",0,16,2,1248.95,-0.31395877947616,0.391793299994706,"1",-0.380065824455597,"nonMP","1"
"738","Test3",1,17,13,755.1,-0.31395877947616,0.391793299994706,"1",-0.380065824455597,"nonMP","1"
"739","Test3",1,18,12,1798.255,-0.31395877947616,0.391793299994706,"1",-0.380065824455597,"nonMP","1"
"740","Test3",1,19,6,3231.93,-0.31395877947616,0.391793299994706,"1",-0.380065824455597,"nonMP","1"
"741","Test3",0,20,14,3229.155,-0.31395877947616,0.391793299994706,"1",-0.380065824455597,"consMP","1"
"742","Test3",0,21,11,1932.22,-0.31395877947616,0.391793299994706,"1",-0.380065824455597,"consMP","1"
"743","Test3",0,22,8,2535.175,-0.31395877947616,0.391793299994706,"1",-0.380065824455597,"vowelMP","1"
"744","Test3",1,23,22,4452.945,-0.31395877947616,0.391793299994706,"1",-0.380065824455597,"vowelMP","1"
